actual_presentation_time,ave_rr,block,block_condition,cardiac_delay_ms,cardiac_phase,choice,choice_time,chosen_symbol,date_time,delay,feedback,intended_presentation_time,is_reversed,outcome_onset_time,participant,percentage_rr,post_choice_fixation_time,reversal_point,rt,run,session,symbol_positions,symbols_onset_time,timing_precision_ms,trial,trial_end_time,trial_start_time,valid_rpeak_time
4636.0243397,0.8720498599999701,0,early,436.02492999998503,diastole,0.0,4633.7400539,B,20250114-130445,,loss,4636.02000373,False,4636.0243397,Harry,0.5,4633.7478731,19,0.7604414999996152,1,001,BA,4632.9796124,4.335970000283851,0,4640.0247598,4631.8123357,4635.5839788
4644.0925047,0.8928841199998715,0,early,446.44205999993574,diastole,1.0,4642.432621,A,20250114-130445,,win,4644.08896856,False,4644.0925047,Harry,0.5,4642.4388347,19,0.9315783000001829,1,001,BA,4641.5010427,3.5361400005058385,1,4648.0926547,4640.0259216,4643.6425265
4652.3300701,0.8074861999999484,0,early,403.7430999999742,diastole,1.0,4650.2459649,B,20250114-130445,,loss,4652.326676899999,False,4652.3300701,Harry,0.5,4650.2523725,19,1.1064052000001539,1,001,AB,4649.1395597,3.3932000005734153,2,4656.3300751,4648.0935241,4651.9229338
4659.5845196,0.8950199400000202,0,early,447.50997000001007,diastole,1.0,4658.0395279,A,20250114-130445,,win,4659.58044247,False,4659.5845196,Harry,0.5,4658.0471925,19,0.6155406000007133,1,001,BA,4657.4239873,4.077130000041507,3,4663.5839234,4656.3307325,4659.1329325
4667.8697805,0.9303896400000667,0,early,465.19482000003336,diastole,0.0,4665.512381,A,20250114-130445,,win,4667.86626152,False,4667.8697805,Harry,0.5,4665.5207553,19,0.4362766999993255,1,001,AB,4665.0761043,3.5189800000807736,4,4671.8705854,4663.5847783,4667.4010667
4675.4236004,0.9512582600000314,0,early,475.6291300000157,diastole,1.0,4673.6449752,A,20250114-130445,,win,4675.42073543,False,4675.4236004,Harry,0.5,4673.6503138,19,0.47985739999967336,1,001,BA,4673.1651178,2.8649700007008505,5,4679.4238763,4671.8714749,4674.9451063
4682.7157951,0.9113064600000144,0,early,455.65323000000717,diastole,1.0,4681.0182358,A,20250114-130445,,loss,4682.71313973,False,4682.7157951,Harry,0.5,4681.022574,19,0.4560741000004782,1,001,BA,4680.5621617,2.655369999956747,6,4686.715181,4679.4245404,4682.2574865
4690.2634836,0.9479009599999699,0,early,473.95047999998496,diastole,0.0,4688.2925527,A,20250114-130445,,loss,4690.26065508,False,4690.2634836,Harry,0.5,4688.2992688,19,0.48560099999940576,1,001,AB,4687.8069517,2.8285199996389565,7,4694.2629011,4686.7160962,4689.7867046
4697.6753837,0.932347960000152,0,early,466.17398000007597,diastole,0.0,4696.0657804,A,20250114-130445,,loss,4697.67264348,False,4697.6753837,Harry,0.5,4696.0735627,19,0.7717842000001838,1,001,AB,4695.2939962,2.7402199993957765,8,4701.6752981,4694.2641599,4697.2064695
4705.184535,0.9396474400000443,0,early,469.82372000002215,diastole,1.0,4703.6694461,A,20250114-130445,,win,4705.18080072,False,4705.184535,Harry,0.5,4703.677107,19,0.5150255999997171,1,001,BA,4703.1544205,3.7342800005717436,9,4709.1856092,4701.6763584,4704.710977
4712.703702,0.9408127599999716,0,early,470.4063799999858,diastole,1.0,4711.1827035,A,20250114-130445,,loss,4712.69957148,False,4712.703702,Harry,0.5,4711.1895589,19,0.6000177999994776,1,001,BA,4710.5826857,4.130520000217075,10,4716.7036244,4709.1867807,4712.2291651
4720.2026981,0.9392498600000181,0,early,469.62493000000904,diastole,0.0,4718.4167801,A,20250114-130445,,loss,4720.19867813,False,4720.2026981,Harry,0.5,4718.4249868,19,0.6527472000007037,1,001,AB,4717.7640329,4.019969999717432,11,4724.2032185,4716.7044864,4719.7290532
4727.6024023,0.9337202999999136,0,early,466.8601499999568,diastole,1.0,4726.009317,B,20250114-130445,,loss,4727.598848449999,False,4727.6024023,Harry,0.5,4726.0181239,19,0.4377959000003102,1,001,AB,4725.5715211,3.5538500005714013,12,4731.6023792,4724.204213,4727.1319883
4735.6299434,0.8889693599998282,0,early,444.4846799999141,diastole,1.0,4733.682887,B,20250114-130445,,loss,4735.627287679999,False,4735.6299434,Harry,0.5,4733.6905989,19,0.6099791999995432,1,001,AB,4733.0729078,2.6557200008028303,13,4739.6297129,4731.6034092,4735.182803
4742.8714027,0.9111177599999791,0,early,455.5588799999896,diastole,0.0,4741.3869324,A,20250114-130445,,win,4742.86791628,False,4742.8714027,Harry,0.5,4741.393902,19,0.578241799999887,1,001,AB,4740.8086906,3.4864199997173273,14,4746.8709643,4739.630782,4742.4123574
4750.75341,0.8858598000000711,0,early,442.92990000003556,diastole,1.0,4748.780276,A,20250114-130445,,loss,4750.750510100001,False,4750.75341,Harry,0.5,4748.78727,19,0.4770689000006314,1,001,BA,4748.3032071,2.8998999996474595,15,4754.7536542,4746.8717999,4750.3075802
4758.3348262,0.9916041200000109,0,early,495.80206000000544,diastole,0.0,4756.6424939,A,20250114-130445,,win,4758.331221959999,False,4758.3348262,Harry,0.5,4756.6502101,19,0.5043785999996544,1,001,AB,4756.1381153,3.604240000640857,16,4762.3358615,4754.7545588,4757.8354199
4766.0017129,0.8348808599999756,0,early,417.4404299999878,diastole,1.0,4764.0260928,A,20250114-130445,,win,4765.99800893,False,4766.0017129,Harry,0.5,4764.0330906,19,0.397857699999804,1,001,BA,4763.6282351,3.703970000060508,17,4770.0015958,4762.3368897,4765.5805685
4773.7085187,0.8543164800001251,0,early,427.1582400000625,diastole,1.0,4771.9592461,A,20250114-130445,,win,4773.70477354,False,4773.7085187,Harry,0.5,4771.967405,19,0.6172983000005843,1,001,BA,4771.3419478,3.7451600001077168,18,4777.7080985,4770.0022206,4773.2776153
4781.5216167,0.8567144000000553,0,early,428.35720000002766,diastole,0.0,4779.4030037,A,20250114-130445,,loss,4781.5190136,True,4781.5216167,Harry,0.5,4779.4105189,19,0.4526982000006683,1,001,AB,4778.9503055,2.603099999760161,19,4785.5216303,4777.7093963,4781.0906564
4789.7157574,0.830966719999924,0,early,415.483359999962,diastole,1.0,4787.5859097,A,20250114-130445,,win,4789.71131496,True,4789.7157574,Harry,0.5,4787.5930719,19,0.5973381000003428,1,001,BA,4786.9885716,4.442440000275383,20,4793.716804,4785.5225088,4789.2958316
4797.525443,0.8685384200000044,0,early,434.2692100000022,diastole,1.0,4795.2695318,A,20250114-130445,,win,4797.52154271,True,4797.525443,Harry,0.5,4795.276771,19,0.4365184999996927,1,001,BA,4794.8330133,3.9002900002742535,21,4801.5257001,4793.7178442,4797.0872735
4805.4329628,0.8758354999999938,0,early,437.9177499999969,diastole,1.0,4803.5822321,A,20250114-130445,,win,4805.42934475,True,4805.4329628,Harry,0.5,4803.587437,19,0.7283108999999968,1,001,BA,4802.8539212,3.6180499992042314,22,4809.4336679,4801.5265156,4804.991427
4813.346404,0.8717326399999366,0,early,435.86631999996825,diastole,1.0,4811.2252748,A,20250114-130445,,loss,4813.34294302,True,4813.346404,Harry,0.5,4811.2328342,19,0.4620844000000943,1,001,BA,4810.7631904,3.4609799995450885,23,4817.3469569,4809.4347515,4812.9070767
4821.2561775,0.8871074799999406,0,early,443.5537399999703,diastole,1.0,4819.1082868,A,20250114-130445,,loss,4821.251843440001,True,4821.2561775,Harry,0.5,4819.115869,19,0.5919309000000794,1,001,BA,4818.5163559,4.334059999564488,24,4825.2558538,4817.3476953,4820.8082897
4828.3598942,0.8967363600000681,0,early,448.36818000003404,diastole,1.0,4826.8114149,A,20250114-130445,,loss,4828.35694828,True,4828.3598942,Harry,0.5,4826.8191098,19,0.5431917000005342,1,001,BA,4826.2682232,2.9459199995471863,25,4832.3601785,4825.2567244,4827.9085801
4836.2726216,0.8785783999999695,0,early,439.2891999999847,diastole,1.0,4834.3448177,A,20250114-130445,,loss,4836.267886199999,True,4836.2726216,Harry,0.5,4834.3517047,19,0.61126989999957,1,001,BA,4833.7335478,4.735400000754453,26,4840.2723564,4832.361017,4835.828597
4844.2617802,0.8869801200000438,0,early,443.4900600000219,diastole,1.0,4842.1779525,A,20250114-130445,,loss,4844.25797436,True,4844.2617802,Harry,0.5,4842.1851282,19,0.42290800000046147,1,001,BA,4841.7550445,3.805840000495664,27,4848.2622612,4840.2735134,4843.8144843
4852.4647536,0.9261168799999723,0,early,463.05843999998615,diastole,1.0,4850.2222649,B,20250114-130445,,win,4852.46153474,True,4852.4647536,Harry,0.5,4850.2299009,19,0.5858336999999665,1,001,AB,4849.6364312,3.218859999833512,28,4856.4652893,4848.2633323,4851.9984763
4860.3891802,0.8706256399998893,0,early,435.3128199999446,diastole,1.0,4858.4229649,B,20250114-130445,,win,4860.38596182,True,4860.3891802,Harry,0.5,4858.4310362,19,0.6554169000000911,1,001,AB,4857.767548,3.2183799994527362,29,4864.3899373,4856.466168,4859.950649
4868.4810794,0.8956883800001378,0,early,447.8441900000689,diastole,1.0,4866.1463006,B,20250114-130445,,win,4868.47793929,True,4868.4810794,Harry,0.5,4866.1549674,19,0.6199991000003138,1,001,AB,4865.5263015,3.1401100004586624,30,4872.4806186,4864.3909215,4868.0300951
4876.4102126,0.8688556800001607,0,early,434.4278400000803,diastole,1.0,4874.1896143,B,20250114-130445,,win,4876.4065289400005,True,4876.4102126,Harry,0.5,4874.1972515,19,0.5059471000004123,1,001,AB,4873.6836672,3.683659999296651,31,4880.4105657,4872.4817791,4875.9721011
4884.36383,0.8838507000000391,0,early,441.92535000001953,diastole,0.0,4882.8820015,B,20250114-130445,,loss,4884.36083685,True,4884.36383,Harry,0.5,4882.8897567,19,1.0002301000004081,1,001,BA,4881.8817714,2.993150000293099,32,4888.3635701,4880.4116069,4883.9189115
4892.188115,0.8627894599998399,0,early,431.39472999991995,diastole,1.0,4890.2152611,A,20250114-130445,,loss,4892.184255929999,True,4892.188115,Harry,0.5,4890.2219372,19,0.43148939999991853,1,001,BA,4889.7837717,3.859070000544307,33,4896.1881061,4888.3644154,4891.7528612
4899.8636312,0.8594672199998967,0,early,429.7336099999484,diastole,0.0,4898.128358,B,20250114-130445,,loss,4899.860424009999,True,4899.8636312,Harry,0.5,4898.1355777,19,0.6240922999995746,1,001,BA,4897.5042657,3.207190000466653,34,4903.8637968,4896.189076,4899.4306904
4907.5858973,0.8598154799999975,0,early,429.90773999999874,diastole,1.0,4906.0414228,A,20250114-130445,,loss,4907.58228064,True,4907.5858973,Harry,0.5,4906.0492289,19,0.7274000999996133,1,001,BA,4905.3140227,3.616660000261618,35,4911.5858416,4903.8646254,4907.1523729
4915.9791114,0.8344939799999338,0,early,417.2469899999669,diastole,1.0,4914.0246564,B,20250114-130445,,win,4915.97441429,True,4915.9791114,Harry,0.5,4914.0312144,19,1.1505645999995977,1,001,AB,4912.8740918,4.697110000051907,36,4919.9798047,4911.5868293,4915.5571673
4923.7667033,0.8620712800000547,0,early,431.03564000002734,diastole,1.0,4921.5481699,B,20250114-130445,,win,4923.76348264,True,4923.7667033,Harry,0.5,4921.5553678,19,0.5258867000002283,1,001,AB,4921.0222832,3.2206599998971797,37,4927.7671459,4919.9805758,4923.332447
4931.4028865,0.8664435400000002,0,early,433.2217700000001,diastole,1.0,4929.461231,B,20250114-130445,,win,4931.39838707,True,4931.4028865,Harry,0.5,4929.4658628,19,0.4416361000003235,1,001,AB,4929.0195949,4.499429999668791,38,4935.4026171,4927.7678738,4930.9651653
4939.2266324,0.8622946400000728,0,early,431.1473200000364,diastole,0.0,4937.1843078,B,20250114-130445,,win,4939.22365772,True,4939.2266324,Harry,0.5,4937.2525372,19,0.6262258000006113,1,001,BA,4936.558082,2.9746800000793883,39,4943.2262857,4935.404949,4938.7925104
5000.2232845,0.8671661200000017,1,mid,182.10488520000035,systole,1.0,4998.6781886,A,20250114-130445,,win,5000.2206271852,False,5000.2232845,Harry,0.21,4998.6861975,21,0.8819462999999814,1,001,BA,4997.7962423,2.657314799762389,0,5004.2243821,4996.5305626,5000.0385223
5007.5356963,0.7917478200000915,1,mid,166.2670422000192,systole,1.0,5006.2116316,A,20250114-130445,,loss,5007.5330599422,False,5007.5356963,Harry,0.21,5006.219209,21,0.5639891000000716,1,001,BA,5005.6476425,2.636357799929101,1,5011.5364676,5004.2251774,5007.3667929
,,1,mid,,,,,,20250114-130445,,timeout,,False,,Harry,,,21,,1,001,BA,5013.0116162,,2,5014.7679167,5011.537122,
5018.2972019,0.9324664400000984,1,mid,195.81795240002066,systole,1.0,5016.5820355,A,20250114-130445,,win,5018.2945821524,False,5018.2972019,Harry,0.21,5016.5862338,21,0.489637099999527,1,001,BA,5016.0923984,2.6197475999651942,3,5022.2975428,5014.7681771,5018.0987642
5025.6078138,0.9201898600000277,1,mid,193.23987060000582,systole,0.0,5024.3858153,A,20250114-130445,,win,5025.604173270601,False,5025.6078138,Harry,0.21,5024.3937468,21,0.9019048999998631,1,001,AB,5023.4839104,3.640529399490333,4,5029.6083326,5022.2984487,5025.4109334
5032.8433528,0.9060132200000226,1,mid,190.26277620000474,systole,1.0,5031.6214479,A,20250114-130445,,win,5032.8411638762,False,5032.8433528,Harry,0.21,5031.6265346,21,0.8714557000002969,1,001,BA,5030.7499922,2.188923799621989,5,5036.8435264,5029.6091934,5032.6509011
5040.1013208,0.9180121999999755,1,mid,192.78256199999487,systole,0.0,5038.4841301,A,20250114-130445,,win,5040.098911562,False,5040.1013208,Harry,0.21,5038.491855,21,0.6250413999996454,1,001,AB,5037.8590887,2.409238000836922,6,5044.1010478,5036.8444125,5039.906129
5047.114325,0.878691179999987,1,mid,184.52514779999726,systole,1.0,5045.7577626,A,20250114-130445,,win,5047.1114632478,False,5047.114325,Harry,0.21,5045.7659976,21,0.6361170000000129,1,001,BA,5045.1216456,2.861752199351031,7,5051.1141826,5044.1021228,5046.9269381
5055.1241229,0.8846083999998882,1,mid,185.76776399997652,systole,1.0,5053.1010831,A,20250114-130445,,win,5055.1212100640005,False,5055.1241229,Harry,0.21,5053.1089622,21,0.48576839999986987,1,001,BA,5052.6153147,2.9128359992682817,8,5059.1246125,5051.1152827,5054.9354423
5062.5419119,0.7823797200000626,1,mid,164.29974120001313,systole,0.0,5060.8843287,A,20250114-130445,,win,5062.5392446412,False,5062.5419119,Harry,0.21,5060.8908677,21,0.622608499999842,1,001,AB,5060.2617202,2.6672588001019903,9,5066.5424176,5059.1256901,5062.3749449
5070.2909616,0.8710427800000616,1,mid,182.91898380001294,systole,0.0,5068.4677973,A,20250114-130445,,win,5070.2885883838,False,5070.2909616,Harry,0.21,5068.4750238,21,0.5625116000001071,1,001,AB,5067.9052857,2.3732161998850643,10,5074.2906862,5066.5435867,5070.1056694
5078.1734702,0.8793642799999362,1,mid,184.66649879998658,systole,1.0,5076.4107434,A,20250114-130445,,loss,5078.1711609988,False,5078.1734702,Harry,0.21,5076.4183448,21,0.6389690999994855,1,001,BA,5075.7717743,2.309201200660027,11,5082.1743501,5074.2918206,5077.9864945
5086.0506618,0.8626270800001293,1,mid,181.15168680002716,systole,1.0,5084.0138602,A,20250114-130445,,loss,5086.0480087868,False,5086.0506618,Harry,0.21,5084.0213859,21,0.7028270999999222,1,001,BA,5083.3110331,2.6530131999606965,12,5090.05138,5082.1753285,5085.8668571
5093.3938968,0.9157268400000248,1,mid,192.30263640000518,systole,0.0,5091.9967154,B,20250114-130445,,loss,5093.3911810364,False,5093.3938968,Harry,0.21,5092.0050204,21,0.48714619999918796,1,001,BA,5091.5095692,2.715763600463106,13,5097.3942831,5090.0523512,5093.1988784
5101.2972433,0.8837555199999769,1,mid,185.58865919999513,systole,0.0,5099.2002621,B,20250114-130445,,loss,5101.2941462592,False,5101.2972433,Harry,0.21,5099.2072322,21,0.5007895999997345,1,001,BA,5098.6994725,3.097040800639661,14,5105.2975878,5097.3951771,5101.1085576
5109.1914817,0.8799515599999722,1,mid,184.78982759999417,systole,0.0,5107.6428819,A,20250114-130445,,win,5109.1888900276,False,5109.1914817,Harry,0.21,5107.6507347,21,1.028149100000519,1,001,AB,5106.6147328,2.5916723998307134,15,5113.1916942,5105.2984879,5109.0041002
5117.0724346,0.8714906999999584,1,mid,183.01304699999127,systole,0.0,5115.3559188,A,20250114-130445,,win,5117.069929546999,False,5117.0724346,Harry,0.21,5115.3633144,21,0.6979978999997911,1,001,AB,5114.6579209,2.5050530002772575,16,5121.0721838,5113.19236,5116.8869165
5123.9813298,0.8590736400001333,1,mid,180.405464400028,systole,1.0,5122.7594567,A,20250114-130445,,win,5123.9786789643995,False,5123.9813298,Harry,0.21,5122.7653602,21,0.5828168999996706,1,001,BA,5122.1766398,2.6508356004342204,17,5127.9822989,5121.0731879,5123.7982735
5131.0380698,0.8825436999999511,1,mid,185.33417699998972,systole,0.0,5129.6632952,A,20250114-130445,,win,5131.035285877,False,5131.0380698,Harry,0.21,5129.6710322,21,0.5575903999997536,1,001,AB,5129.1057048,2.783922999697097,18,5135.0379504,5127.983154,5130.8499517
5138.4411598,0.8060037999999622,1,mid,169.26079799999206,systole,0.0,5136.8173546,A,20250114-130445,,loss,5138.4386447980005,False,5138.4411598,Harry,0.21,5136.8259543,21,0.49911969999993744,1,001,AB,5136.3182349,2.5150019991997397,19,5142.4421652,5135.0390612,5138.269384
5145.6206767,0.8938194599999406,1,mid,187.70208659998752,systole,1.0,5144.2409278,A,20250114-130445,,loss,5145.617527586601,False,5145.6206767,Harry,0.21,5144.2483493,21,0.7333623999993506,1,001,BA,5143.5075654,3.1491133995587006,20,5149.6215916,5142.4431552,5145.4298255
5152.8002548,0.8997834800000419,1,mid,188.9545308000088,systole,1.0,5151.4846873,A,20250114-130445,,loss,5152.7977563308,True,5152.8002548,Harry,0.21,5151.4926409,21,0.7144920999999158,1,001,BA,5150.7701952,2.498469199963438,21,5156.8004839,5149.6227182,5152.6088018
5160.1224095,0.9326394800000344,1,mid,195.85429080000722,systole,0.0,5158.458434,A,20250114-130445,,loss,5160.1194260908,True,5160.1224095,Harry,0.21,5158.463802,21,0.5712148000002344,1,001,AB,5157.8872192,2.9834092001692625,22,5164.1228301,5156.8013761,5159.9235718
5167.4075035,0.9243519599998763,1,mid,194.11391159997402,systole,1.0,5166.1218298,A,20250114-130445,,loss,5167.3686057116,True,5167.4075035,Harry,0.21,5166.1289492,21,0.7270289000007324,1,001,BA,5165.3948009,38.897788399481215,23,5171.4082099,5164.1237413,5167.1744918
5175.2395421,0.8412600600000587,1,mid,176.6646126000123,systole,1.0,5173.3556203,B,20250114-130445,,win,5175.2371000125995,True,5175.2395421,Harry,0.21,5173.3636518,21,0.9050454999996873,1,001,AB,5172.4505748,2.442087400595483,24,5179.2401203,5171.408875,5175.0604354
5183.2796087,0.8688066999999137,1,mid,182.44940699998185,systole,1.0,5181.4087265,B,20250114-130445,,loss,5183.2769662069995,True,5183.2796087,Harry,0.21,5181.4145024,21,0.6907082999996419,1,001,AB,5180.7180182,2.6424930001667235,25,5187.2803945,5179.2410018,5183.0945168
5191.1296537,0.8801402999999481,1,mid,184.8294629999891,systole,0.0,5189.1919018,B,20250114-130445,,loss,5191.126982063,True,5191.1296537,Harry,0.21,5189.1980828,21,0.7110795999997208,1,001,BA,5188.4808222,2.6716370002759504,26,5195.1306919,5187.2836542,5190.9421526
,,1,mid,,,,,,20250114-130445,,timeout,,True,,Harry,,,21,,1,001,BA,5196.3100463,,27,5198.0688924,5195.1318684,
5200.9396563,0.9054542399999264,1,mid,190.1453903999845,systole,1.0,5199.5534491,A,20250114-130445,,loss,5200.9369435904,True,5200.9396563,Harry,0.21,5199.5613516,21,0.37943989999985206,1,001,BA,5199.1740092,2.71270960001857,28,5204.9401897,5198.0691084,5200.7467982
5208.195287,0.9052406400000109,1,mid,190.1005344000023,systole,0.0,5206.7374979,B,20250114-130445,,win,5208.1926711343995,True,5208.195287,Harry,0.21,5206.7448864,21,0.611034099999415,1,001,BA,5206.1264638,2.615865600091638,29,5212.1954345,5204.9408641,5208.0025706
5216.0104034,0.8707147999999506,1,mid,182.85010799998963,systole,0.0,5214.0207607,B,20250114-130445,,win,5216.007899708,True,5216.0104034,Harry,0.21,5214.0272911,21,0.49294540000028064,1,001,BA,5213.5278153,2.5036919996637153,30,5220.0107594,5212.1964605,5215.8250496
5223.7792174,0.8651022400001238,1,mid,181.67147040002598,systole,0.0,5221.8434091,B,20250114-130445,,win,5223.7768579704,True,5223.7792174,Harry,0.21,5221.8510862,21,0.47024619999956485,1,001,BA,5221.3731629,2.3594295998918824,31,5227.7796656,5220.0119495,5223.5951865
5231.3653204,0.8462321400000292,1,mid,177.70874940000613,systole,1.0,5229.4669018,B,20250114-130445,,win,5231.3627293494,True,5231.3653204,Harry,0.21,5229.4745252,21,0.5910842000002958,1,001,AB,5228.8758176,2.591050600130984,32,5235.3657448,5227.7804351,5231.1850206
5239.0634037,0.8406951999999365,1,mid,176.54599199998665,systole,0.0,5237.1802159,B,20250114-130445,,win,5239.061026192,True,5239.0634037,Harry,0.21,5237.1858448,21,0.4992002999997567,1,001,BA,5236.6810156,2.3775079998813453,33,5243.0642603,5235.3666237,5238.8844802
5246.8748861,0.8497412200000326,1,mid,178.44565620000685,systole,1.0,5245.0832749,B,20250114-130445,,win,5246.8710632562,True,5246.8748861,Harry,0.21,5245.0912148,21,0.5419683999998597,1,001,AB,5244.5413065,3.8228438006626675,34,5250.8748841,5243.0652141,5246.6926176
5254.5379903,0.8498507599999356,1,mid,178.46865959998647,systole,0.0,5252.5267033,B,20250114-130445,,win,5254.5357424596,True,5254.5379903,Harry,0.21,5252.5342936,21,0.6244963999997708,1,001,BA,5251.9022069,2.2478403998320573,35,5258.5384736,5250.8757602,5254.3572738
5262.141109,0.8468208400001458,1,mid,177.8323764000306,systole,0.0,5260.5027729,B,20250114-130445,,win,5262.1378583764,True,5262.141109,Harry,0.21,5260.5103213,21,0.6606793999999354,1,001,BA,5259.8420935,3.2506236002518563,36,5266.1414255,5258.5395595,5261.960026
5269.7492105,0.8477362399999038,1,mid,178.0246103999798,systole,1.0,5267.8633111,B,20250114-130445,,loss,5269.7457482104,True,5269.7492105,Harry,0.21,5267.8710959,21,0.511688900000081,1,001,AB,5267.3516222,3.46228960006556,37,5273.7490969,5266.142304,5269.5677236
5277.2192242,0.8302581800000552,1,mid,174.35421780001158,systole,1.0,5275.3270852,A,20250114-130445,,win,5277.2169548178,True,5277.2192242,Harry,0.21,5275.3338905,21,0.5056369999992967,1,001,BA,5274.8214482,2.269382200211112,38,5281.2192634,5273.7498571,5277.0426006
5284.845767,0.8411119399999734,1,mid,176.6335073999944,systole,1.0,5283.179459,A,20250114-130445,,loss,5284.8432545074,True,5284.845767,Harry,0.21,5283.1864121,21,0.5055233000002772,1,001,BA,5282.6739357,2.512492599635152,39,5288.8465463,5281.2203457,5284.666621
5332.4943576,0.7973171600000569,2,late,717.5854440000512,diastole,1.0,5330.449793,A,20250114-130445,,win,5332.491145944,False,5332.4943576,Harry,0.9,5330.4578214,20,0.8936998999997741,1,001,BA,5329.5560931,3.2116559996211436,0,5336.4943597,5328.5218186,5331.7735605
5340.718239,0.9363437599999088,2,late,842.7093839999179,diastole,1.0,5338.2831815,A,20250114-130445,,win,5340.714700584,False,5340.718239,Harry,0.9,5338.2906408,20,0.5894693000000188,1,001,BA,5337.6937122,3.538416000083089,1,5344.7187533,5336.4950299,5339.8719912
5348.7963825,0.9003073199999563,2,late,810.2765879999607,diastole,0.0,5346.5459028,A,20250114-130445,,win,5348.791720688,False,5348.7963825,Harry,0.9,5346.5533436,20,0.5145472999993217,1,001,AB,5346.0313555,4.6618119995400775,2,5352.7967932,5344.7197204,5347.9814441
5357.0207589,0.8162791800001287,2,late,734.6512620001158,diastole,1.0,5354.4291413,A,20250114-130445,,win,5357.015770661999,False,5357.0207589,Harry,0.9,5354.4377749,20,0.5879406000003655,1,001,BA,5353.8412007,4.9882380008057225,3,5361.021865,5352.7977707,5356.2811194
5364.9650566,0.8684502800000701,2,late,781.605252000063,diastole,1.0,5362.9220554,A,20250114-130445,,loss,5364.961004252,False,5364.9650566,Harry,0.9,5362.9296735,20,0.5797216999999364,1,001,BA,5362.3423337,4.052348000186612,4,5368.9643729,5361.022958,5364.179399
5372.8557928,0.8804480200000399,2,late,792.4032180000358,diastole,0.0,5370.5744149,B,20250114-130445,,win,5372.8533885179995,False,5372.8557928,Harry,0.9,5370.5818883,20,0.4844800999999279,1,001,BA,5370.0899348,2.404282000497915,5,5376.8569029,5368.9655651,5372.0609853
5381.5789886,0.8744875399999728,2,late,787.0387859999754,diastole,0.0,5379.3968177,B,20250114-130445,,win,5381.575136386,False,5381.5789886,Harry,0.9,5379.4044279,20,1.2093621999993047,1,001,BA,5378.1874555,3.8522140002896776,6,5385.5792508,5376.8578094,5380.7880976
5390.3376614,0.8592821000000186,2,late,773.3538900000168,diastole,0.0,5387.6498288,B,20250114-130445,,loss,5390.334553690001,False,5390.3376614,Harry,0.9,5387.6574021,20,0.7128726999999344,1,001,BA,5386.9369561,3.1077099993126467,7,5394.3376824,5385.5807238,5389.5611998
5399.1202667,0.8619196999999985,2,late,775.7277299999987,diastole,1.0,5396.6619648,A,20250114-130445,,win,5399.11638613,False,5399.1202667,Harry,0.9,5396.6699246,20,0.8821146000000226,1,001,BA,5395.7798502,3.8805699996373733,8,5403.1204193,5394.3387586,5398.3406584
5407.1695453,0.8777718399998775,2,late,789.9946559998898,diastole,0.0,5404.9652957,A,20250114-130445,,loss,5407.166038556,False,5407.1695453,Harry,0.9,5404.9713383,20,0.62533540000004,1,001,AB,5404.3399603,3.5067440003331285,9,5411.1699938,5403.1215171,5406.3760439
5415.3988608,0.9208088800000042,2,late,828.7279920000038,diastole,1.0,5413.1186164,A,20250114-130445,,win,5415.395370992,False,5415.3988608,Harry,0.9,5413.1271108,20,0.9071486000002551,1,001,BA,5412.2114678,3.489808000267658,10,5419.3988946,5411.1711078,5414.566643
5423.4232914,0.8998658599999544,2,late,809.879273999959,diastole,0.0,5421.4812435,B,20250114-130445,,win,5423.419799974,False,5423.4232914,Harry,0.9,5421.4882383,20,0.6761439000001701,1,001,BA,5420.8050996,3.491426000437059,11,5427.4231726,5419.3999433,5422.6099207
5431.5419678,0.8935944799999561,2,late,804.2350319999605,diastole,1.0,5429.5843909,A,20250114-130445,,loss,5431.538108732,False,5431.5419678,Harry,0.9,5429.5928788,20,0.6928795999992872,1,001,BA,5428.8915113,3.859067999655963,12,5435.5418567,5427.4243286,5430.7338737
5439.6083901,0.8871960400001626,2,late,798.4764360001464,diastole,0.0,5437.7074543,B,20250114-130445,,loss,5439.603645436,False,5439.6083901,Harry,0.9,5437.7153077,20,0.8433471999996982,1,001,BA,5436.8641071,4.744664000099874,13,5443.6086378,5435.5427627,5438.805169
5447.7957089,0.9024241399998573,2,late,812.1817259998716,diastole,1.0,5445.6806695,B,20250114-130445,,loss,5447.792118126,False,5447.7957089,Harry,0.9,5445.6873398,20,0.9255894999996599,1,001,AB,5444.75508,3.590774000258534,14,5451.7960213,5443.6097876,5446.9799364
5455.5485714,0.8359275599999819,2,late,752.3348039999837,diastole,1.0,5453.6537665,A,20250114-130445,,loss,5455.545794904,False,5455.5485714,Harry,0.9,5453.661229,20,0.4524260999996841,1,001,BA,5453.2013404,2.776495999569306,15,5459.5484003,5451.7971892,5454.7934601
5463.6204314,0.8745935200000531,2,late,787.1341680000478,diastole,1.0,5461.4074306,B,20250114-130445,,loss,5463.616348468,False,5463.6204314,Harry,0.9,5461.4146704,20,0.6096892000005028,1,001,AB,5460.7977414,4.082931999619177,16,5467.6208788,5459.5490542,5462.8292143
5471.7137336,0.9209859800001141,2,late,828.8873820001027,diastole,0.0,5469.1710442,A,20250114-130445,,loss,5471.710688882,False,5471.7137336,Harry,0.9,5469.1782682,20,0.43471540000064124,1,001,AB,5468.7363288,3.0447179997281637,17,5475.7134007,5467.6219801,5470.8818015
5479.9678643,0.7985462600001483,2,late,718.6916340001335,diastole,0.0,5477.5849172,B,20250114-130445,,loss,5479.965134933999,False,5479.9678643,Harry,0.9,5477.59223,20,0.6677924999994502,1,001,BA,5476.9171247,2.7293660004943376,18,5483.9685587,5475.7143031,5479.2464433
5488.0273839,0.8713646199999857,2,late,784.2281579999872,diastole,1.0,5485.9699575,B,20250114-130445,,win,5488.024326258,False,5488.0273839,Harry,0.9,5485.9772558,20,0.5659484000007069,1,001,AB,5485.4040091,3.0576420003853855,19,5492.0267091,5483.9705354,5487.2400981
5495.9158492,0.8776807199999894,2,late,789.9126479999906,diastole,0.0,5493.6202245,B,20250114-130445,,loss,5495.911275248,True,5495.9158492,Harry,0.9,5493.6282126,20,0.37417550000009214,1,001,BA,5493.246049,4.5739520001006895,20,5499.9154919,5492.0278552,5495.1213626
5503.9683449,0.8967890399999305,2,late,807.1101359999375,diastole,0.0,5501.9836329,B,20250114-130445,,loss,5503.965392836,True,5503.9683449,Harry,0.9,5501.9892993,20,1.0055163999995784,1,001,BA,5500.9781165,2.952064000055543,21,5507.9688134,5499.916493,5503.1582827
5511.6748185,0.8535080199999356,2,late,768.1572179999421,diastole,0.0,5509.6868405,B,20250114-130445,,loss,5511.670527418,True,5511.6748185,Harry,0.9,5509.6935333,20,0.537838099999135,1,001,BA,5509.1490024,4.291081999326707,22,5515.6744753,5507.9697834,5510.9023702
5519.6603383,0.8833980199999132,2,late,795.0582179999219,diastole,1.0,5517.7097498,A,20250114-130445,,loss,5519.657942418,True,5519.6603383,Harry,0.9,5517.7173718,20,0.8106714000005013,1,001,BA,5516.8990784,2.3958820002007997,23,5523.6609836,5515.6756406,5518.8628842
5528.0926065,0.8421482400000968,2,late,757.9334160000872,diastole,0.0,5525.7127536,A,20250114-130445,,loss,5528.0899579160005,True,5528.0926065,Harry,0.9,5525.7199494,20,0.8204375999994227,1,001,AB,5524.892316,2.6485839998713345,24,5532.0924814,5523.6620836,5527.3320245
5536.6444987,0.8527652200000375,2,late,767.4886980000339,diastole,1.0,5534.4755527,B,20250114-130445,,loss,5536.641477498,True,5536.6444987,Harry,0.9,5534.4815985,20,0.8820252999994409,1,001,AB,5533.5935274,3.021202000127232,25,5540.6444818,5532.0935629,5535.8739888
5544.3678973,0.8678263800000423,2,late,781.0437420000382,diastole,0.0,5542.3491314,A,20250114-130445,,win,5544.364890242,True,5544.3678973,Harry,0.9,5542.3554807,20,0.6243929000002026,1,001,AB,5541.7247385,3.0070579996390734,26,5548.3677347,5540.645601,5543.5838465
5552.0744541,0.8620654000000286,2,late,775.8588600000257,diastole,1.0,5550.1923257,A,20250114-130445,,win,5552.07121016,True,5552.0744541,Harry,0.9,5550.1979988,20,0.5971867999996903,1,001,BA,5549.5951389,3.2439400001749163,27,5556.0748003,5548.3687878,5551.2953513
5559.6801533,0.8308062999998583,2,late,747.7256699998726,diastole,1.0,5557.7661709,A,20250114-130445,,loss,5559.67512527,True,5559.6801533,Harry,0.9,5557.7737759,20,0.646954600000754,1,001,BA,5557.1192163,5.0280300001759315,28,5563.6810072,5556.0759611,5558.9273996
5567.500871,0.870404580000104,2,late,783.3641220000936,diastole,0.0,5565.5592973,B,20250114-130445,,win,5567.496946422,True,5567.500871,Harry,0.9,5565.5668581,20,0.6630796999997983,1,001,BA,5564.8962176,3.924577999896428,29,5571.5013559,5563.6821836,5566.7135823
5575.9685818,0.8528376199999912,2,late,767.5538579999921,diastole,1.0,5573.4827185,A,20250114-130445,,loss,5575.965210658,True,5575.9685818,Harry,0.9,5573.4893336,20,0.7141222000000198,1,001,BA,5572.7685963,3.371142000105465,30,5579.9688312,5571.5024824,5575.1976568
5583.6653545,0.8531230599999617,2,late,767.8107539999655,diastole,0.0,5581.7954797,B,20250114-130445,,loss,5583.662157553999,True,5583.6653545,Harry,0.9,5581.8036252,20,0.5464240000001155,1,001,BA,5581.2490557,3.196946000571188,31,5587.6660985,5579.9698242,5582.8943468
5591.2714231,0.8424998200000118,2,late,758.2498380000106,diastole,1.0,5589.4791748,B,20250114-130445,,loss,5591.267882138,True,5591.2714231,Harry,0.9,5589.4876827,20,0.4887373999999909,1,001,AB,5588.9904374,3.54096200044296,32,5595.2722051,5587.6669881,5590.5096323
5599.7010633,0.8448308400000315,2,late,760.3477560000283,diastole,1.0,5597.4328451,B,20250114-130445,,win,5599.697047156,True,5599.7010633,Harry,0.9,5597.440644,20,0.7952081000003091,1,001,AB,5596.637637,4.016144000161148,33,5603.7016297,5595.2730963,5598.9366994
5607.2836957,0.8347158599999602,2,late,751.2442739999642,diastole,0.0,5605.3265892,A,20250114-130445,,loss,5607.280618074,True,5607.2836957,Harry,0.9,5605.3341906,20,0.6045309000000998,1,001,AB,5604.7220583,3.0776260000493494,34,5611.2840726,5603.7026125,5606.5293738
5615.3203071,0.778952659999959,2,late,701.0573939999631,diastole,1.0,5613.0002124,B,20250114-130445,,win,5615.315641294,True,5615.3203071,Harry,0.9,5613.00743,20,0.5527824000000692,1,001,AB,5612.44743,4.665806000048178,35,5619.3203523,5611.2849566,5614.6145839
5623.789808,0.8435009399998308,2,late,759.1508459998478,diastole,0.0,5621.4732162,B,20250114-130445,,win,5623.785828546,True,5623.789808,Harry,0.9,5621.4804233,20,0.65371899999991,1,001,BA,5620.8194972,3.9794540007278556,36,5627.7900271,5619.3213566,5623.0266777
5631.5205537,0.8529937400000562,2,late,767.6943660000505,diastole,1.0,5629.3565095,B,20250114-130445,,win,5631.517548466,True,5631.5205537,Harry,0.9,5629.3622849,20,0.5249792000004163,1,001,AB,5628.8315303,3.0052339998292155,37,5635.5200172,5627.7912195,5630.7498541
5640.2695385,0.8539390800000547,2,late,768.5451720000492,diastole,1.0,5637.7694178,B,20250114-130445,,win,5640.265699472,True,5640.2695385,Harry,0.9,5637.7745364,20,0.9629577000005156,1,001,AB,5636.8064601,3.8390279996747267,38,5644.2697363,5635.5211726,5639.4971543
5648.3929789,0.797671519999858,2,late,717.9043679998722,diastole,0.0,5646.0121132,B,20250114-130445,,win,5648.389357368,True,5648.3929789,Harry,0.9,5646.0190801,20,0.44309160000011616,1,001,BA,5645.5690216,3.621532000579464,39,5652.3935451,5644.2708055,5647.671453
,,3,late,,,,,,20250114-130445,,timeout,,False,,Harry,,,18,,1,001,BA,5716.0759994,,0,5717.8335154,5714.7923814,
5720.685481,0.8936067199998433,3,late,321.6984191999436,systole,1.0,5719.2165817,A,20250114-130445,,win,5720.6829137192,False,5720.685481,Harry,0.36,5719.224951,18,0.3026894999993601,1,001,BA,5718.9138922,2.5672808005765546,1,5724.6851451,5717.8340011,5720.3612153
5727.9836308,0.7699311000000307,3,late,277.17519600001106,systole,0.0,5726.2309445,A,20250114-130445,,win,5727.981125796,False,5727.9836308,Harry,0.36,5726.238737,18,0.4038778000003731,1,001,AB,5725.8270667,2.505004000340705,2,5731.9835424,5724.686218,5727.7039506
5736.0092922,0.859207140000035,3,late,309.3145704000126,systole,0.0,5733.9840295,A,20250114-130445,,win,5736.0071963703995,False,5736.0092922,Harry,0.36,5733.9915218,18,0.5374697000006563,1,001,AB,5733.4465598,2.0958296008757316,3,5740.0090632,5731.9844302,5735.6978818
5743.6918429,0.9417726399999082,3,late,339.0381503999669,systole,0.0,5741.7773392,A,20250114-130445,,loss,5743.6893600504,False,5743.6918429,Harry,0.36,5741.7839103,18,0.4360415999999532,1,001,AB,5741.3412976,2.4828495998008293,4,5747.6923021,5740.0102318,5743.3503219
5751.0918179,0.9265383400001156,3,late,333.5538024000416,systole,0.0,5749.4308887,A,20250114-130445,,win,5751.0883836024,False,5751.0918179,Harry,0.36,5749.4347233,18,0.41452339999977994,1,001,AB,5749.0163653,3.4342975995969027,5,5755.0929183,5747.6933909,5750.7548298
5759.0455726,0.9021984599999996,3,late,324.79144559999986,systole,0.0,5756.9949293,A,20250114-130445,,win,5759.0424398456,False,5759.0455726,Harry,0.36,5757.0023303,18,0.5135399000000689,1,001,AB,5756.4813894,3.132754400212434,6,5763.0455774,5755.0937934,5758.7176484
5766.8704621,0.8740982799999983,3,late,314.6753807999994,systole,0.0,5764.6879832,A,20250114-130445,,win,5766.8676021808,False,5766.8704621,Harry,0.36,5764.6955105,18,0.58104000000003,1,001,AB,5764.1069432,2.859919200091099,7,5770.8708291,5763.0464213,5766.5529268
5775.4057385,0.8380374399999709,3,late,301.6934783999895,systole,0.0,5773.2506683,B,20250114-130445,,win,5775.4024640784,False,5775.4057385,Harry,0.36,5773.2581754,18,0.960567500000252,1,001,BA,5772.2901008,3.274421599599009,8,5779.4058667,5770.8716972,5775.1007706
5783.0147122,0.8235468400000172,3,late,296.4768624000062,systole,0.0,5781.2038088,B,20250114-130445,,loss,5783.0116985624,False,5783.0147122,Harry,0.36,5781.2100458,18,0.5266240999999354,1,001,BA,5780.6771847,3.0136375999063603,9,5787.0146595,5779.4066218,5782.7152217
5790.4726456,0.7857940400001098,3,late,282.8858544000395,systole,0.0,5788.7776786,A,20250114-130445,,win,5790.4700650544,False,5790.4726456,Harry,0.36,5788.7849179,18,0.39710720000039146,1,001,AB,5788.3805714,2.580545599812467,10,5794.4723175,5787.0157332,5790.1871792
5797.988776,0.7971203799999784,3,late,286.9633367999922,systole,0.0,5796.1213052,A,20250114-130445,,loss,5797.9857974368,False,5797.988776,Harry,0.36,5796.1298319,18,0.427542600000379,1,001,AB,5795.6937626,2.978563200485951,11,5801.9898219,5794.4729612,5797.6988341
5805.6102922,0.8835678599998573,3,late,318.08442959994863,systole,0.0,5803.514905,A,20250114-130445,,loss,5805.6072669296,False,5805.6102922,Harry,0.36,5803.5222533,18,0.5181011000004219,1,001,AB,5802.9968039,3.025270400030422,12,5809.6098632,5801.9907057,5805.2891825
5813.2933532,0.8345923400000175,3,late,300.4532424000063,systole,0.0,5811.4181705,A,20250114-130445,,win,5813.2906063424,False,5813.2933532,Harry,0.36,5811.425042,18,0.42700650000006135,1,001,AB,5810.991164,2.746857599959185,13,5817.2931611,5809.6109472,5812.9901531
5821.0128303,0.8521059799999421,3,late,306.75815279997914,systole,0.0,5819.1713819,A,20250114-130445,,win,5821.0087337528,False,5821.0128303,Harry,0.36,5819.1800656,18,0.5251338999996733,1,001,AB,5818.646248,4.096547199878842,14,5825.0127745,5817.2939938,5820.7019756
5828.4500018,0.8187584600000264,3,late,294.7530456000095,systole,0.0,5826.4758184,A,20250114-130445,,win,5828.4471861456,False,5828.4500018,Harry,0.36,5826.4831623,18,0.4298075000006065,1,001,AB,5826.0460109,2.815654399455525,15,5832.4506071,5825.0135908,5828.1524331
5835.928745,0.8187912599998526,3,late,294.76485359994695,systole,0.0,5834.3588569,A,20250114-130445,,win,5835.9261735536,False,5835.928745,Harry,0.36,5834.3666252,18,0.45805550000022777,1,001,AB,5833.9008014,2.5714463999975123,16,5839.9285314,5832.4512818,5835.6314087
5843.4474218,0.828674940000019,3,late,298.32297840000683,systole,0.0,5841.6428324,B,20250114-130445,,loss,5843.445378078401,False,5843.4474218,Harry,0.36,5841.6504292,18,0.5229874999995445,1,001,BA,5841.1198449,2.0437215989659308,17,5847.4480956,5839.9293803,5843.1470551
5851.0513944,0.8281027999999424,3,late,298.11700799997925,systole,1.0,5849.0762469,A,20250114-130445,,loss,5851.048644908,True,5851.0513944,Harry,0.36,5849.0833228,18,0.4688944999998057,1,001,BA,5848.6073524,2.749492000475584,18,5855.0521095,5847.4493335,5850.7505279
5858.6880446,0.8278931400000147,3,late,298.04153040000523,systole,0.0,5856.6001215,A,20250114-130445,,loss,5858.6852861304,True,5858.6880446,Harry,0.36,5856.6076852,18,0.49553740000010293,1,001,AB,5856.1045841,2.758469599939417,19,5862.6884299,5855.0530969,5858.3872446
5866.6545079,0.8882444200000463,3,late,319.76799120001664,systole,0.0,5864.4931342,B,20250114-130445,,win,5866.6515870912,True,5866.6545079,Harry,0.36,5864.5001277,18,0.6022237999995923,1,001,BA,5863.8909104,2.9208087998995325,20,5870.6541431,5862.6895614,5866.3318191
5874.1736466,0.8162284399999408,3,late,293.8422383999786,systole,0.0,5872.0963937,A,20250114-130445,,loss,5874.1703727384,True,5874.1736466,Harry,0.36,5872.1046883,18,0.413966299999629,1,001,AB,5871.6824274,3.273861600064265,21,5878.1745955,5870.6549716,5873.8765305
5881.8646645,0.8493774000000485,3,late,305.77586400001746,systole,0.0,5879.89022,A,20250114-130445,,win,5881.861909763999,True,5881.8646645,Harry,0.36,5879.896138,18,0.4005133000000569,1,001,AB,5879.4897067,2.75473600049736,22,5885.8644395,5878.1767569,5881.5561339
5888.9188906,0.775978319999922,3,late,279.3521951999719,systole,0.0,5887.5937647,A,20250114-130445,,loss,5888.916361495199,True,5888.9188906,Harry,0.36,5887.6020749,18,0.4665341999998418,1,001,AB,5887.1272305,2.529104800487403,23,5892.9191779,5885.8655624,5888.6370093
5896.9822294,0.8928442200000063,3,late,321.4239192000022,systole,0.0,5894.8372866,A,20250114-130445,,loss,5896.9799914192,True,5896.9822294,Harry,0.36,5894.8447664,18,0.47462699999960023,1,001,AB,5894.3626596,2.237980799691286,24,5900.9821564,5892.9198744,5896.6585675
5904.7179234,0.8655824800000118,3,late,311.6096928000042,systole,0.0,5902.5403024,A,20250114-130445,,win,5904.7151892928,True,5904.7179234,Harry,0.36,5902.5479816,18,0.5229242999994312,1,001,AB,5902.0173781,2.7341072000126587,25,5908.7184345,5900.9830374,5904.4035796
5912.6902248,0.8940398400000049,3,late,321.85434240000177,systole,1.0,5911.0829554,A,20250114-130445,,win,5912.6872225424,True,5912.6902248,Harry,0.36,5911.0895765,18,0.9523090000002412,1,001,BA,5910.1306464,3.0022575992916245,26,5916.6899855,5908.719421,5912.3653682
5919.6591109,0.8777154800000062,3,late,315.97757280000224,systole,0.0,5918.2469365,A,20250114-130445,,loss,5919.6558438728,True,5919.6591109,Harry,0.36,5918.2550285,18,0.49857650000012654,1,001,AB,5917.74836,3.267027200308803,27,5923.6594532,5916.69087,5919.3398663
5926.6742611,0.8932590399999754,3,late,321.57325439999113,systole,1.0,5925.3213293,A,20250114-130445,,loss,5926.6687697544,True,5926.6742611,Harry,0.36,5925.328998,18,0.6333746999998766,1,001,BA,5924.6879546,5.4913455996938865,28,5930.6749608,5923.6608991,5926.3471965
5934.6145712,0.889704619999975,3,late,320.293663199991,systole,1.0,5932.8249737,A,20250114-130445,,loss,5934.6116879632,True,5934.6145712,Harry,0.36,5932.8336284,18,0.7418508000000656,1,001,BA,5932.0831229,2.8832367997893016,29,5938.61566,5930.6758675,5934.2913943
5942.6074647,0.884300500000063,3,late,318.3481800000227,systole,0.0,5940.588233,A,20250114-130445,,loss,5942.60347458,True,5942.6074647,Harry,0.36,5940.5962204,18,0.5715323000003991,1,001,AB,5940.0167007,3.9901199997984804,30,5946.6080877,5938.6170224,5942.2851264
5950.7160778,0.8838025600000037,3,late,318.16892160000134,systole,0.0,5949.1805683,A,20250114-130445,,loss,5950.7115791216,True,5950.7160778,Harry,0.36,5949.1871707,18,1.097017699999924,1,001,AB,5948.0835506,4.498678399613709,31,5954.7164772,5946.6087615,5950.3934102
5957.918898,0.8922840999999607,3,late,321.22227599998587,systole,0.0,5956.4644863,A,20250114-130445,,win,5957.916360376001,True,5957.918898,Harry,0.36,5956.4719918,18,0.5627053000007436,1,001,AB,5955.901781,2.5376239991601324,32,5961.9190616,5954.7175931,5957.5951381
5965.7161552,0.8652211200000238,3,late,311.47960320000857,systole,0.0,5964.2075162,B,20250114-130445,,win,5965.7134284032,True,5965.7161552,Harry,0.36,5964.2160023,18,0.7892013999999108,1,001,BA,5963.4183148,2.726796799834119,33,5969.7170186,5961.9196994,5965.4019488
5972.9137129,0.8925023600000713,3,late,321.30084960002563,systole,0.0,5971.4012375,A,20250114-130445,,loss,5972.9102056496,True,5972.9137129,Harry,0.36,5971.4093586,18,0.4965904999999111,1,001,AB,5970.904647,3.507250399707118,34,5976.9133507,5969.7182118,5972.5889048
5980.8058872,0.8718076999999539,3,late,313.8507719999834,systole,0.0,5978.6051892,A,20250114-130445,,win,5980.802531271999,True,5980.8058872,Harry,0.36,5978.6106873,18,0.4285121999992043,1,001,AB,5978.176677,3.355928000928543,35,5984.8059465,5976.9143053,5980.4886805
5988.0342548,0.9019717399998626,3,late,324.7098263999505,systole,0.0,5986.4280317,B,20250114-130445,,win,5988.0323217264,True,5988.0342548,Harry,0.36,5986.4354111,18,0.5562735000003158,1,001,BA,5985.8717582,1.933073599502677,36,5992.0337132,5984.8071351,5987.7076119
5995.5898493,0.8188917600000423,3,late,294.8010336000152,systole,0.0,5994.1213001,B,20250114-130445,,win,5995.5863928336,True,5995.5898493,Harry,0.36,5994.1286945,18,0.611002899999221,1,001,BA,5993.5102972,3.4564664001663914,37,5999.5898102,5992.0347112,5995.2915918
6003.4280273,0.8719702399999733,3,late,313.9092863999904,systole,0.0,6001.3053143,A,20250114-130445,,loss,6003.424890486401,True,6003.4280273,Harry,0.36,6001.3135587,18,0.5233619000000544,1,001,AB,6000.7819524,3.136813599667221,38,6007.4274405,5999.5909192,6003.1109812
6010.7193606,0.9390317400000641,3,late,338.05142640002305,systole,0.0,6009.2580603,B,20250114-130445,,win,6010.7162373264,True,6010.7193606,Harry,0.36,6009.2657293,18,0.4869097000000693,1,001,BA,6008.7711506,3.1232736000674777,39,6014.7190581,6007.4284363,6010.3781859
6031.9656546,0.8039064600001439,4,early,48.23438760000863,systole,0.0,6030.8563325,B,20250114-130445,,loss,6031.9631506876,False,6031.9656546,Harry,0.06,6030.8639691,20,0.9010262999991028,1,001,BA,6029.9553062,2.5039123993337853,0,6035.9654006,6028.9281309,6031.9149163
6039.6918131,0.7459115399999063,4,early,44.754692399994376,systole,1.0,6038.0201928,A,20250114-130445,,win,6039.689327692399,False,6039.6918131,Harry,0.06,6038.0271672,20,0.5629653999994844,1,001,BA,6037.4572274,2.48540760094329,1,6043.691571,6035.9661827,6039.644573
6046.5668679,0.8649936600000728,4,early,51.899619600004364,systole,1.0,6045.3741679,A,20250114-130445,,win,6046.5641715196,False,6046.5668679,Harry,0.06,6045.3803688,20,0.4233821000007083,1,001,BA,6044.9507858,2.6963804002662073,2,6050.5664071,6043.6924678,6046.5122719
6054.0725519,0.966974400000072,4,early,58.018464000004315,systole,1.0,6052.6083605,A,20250114-130445,,loss,6054.070166664001,False,6054.0725519,Harry,0.06,6052.6158269,20,0.5407954000002064,1,001,BA,6052.0675651,2.3852359990996774,3,6058.0721888,6050.5674803,6054.0121482
6061.6818382,0.8400004600000102,4,early,50.400027600000605,systole,0.0,6059.9023197,A,20250114-130445,,loss,6061.679018627599,False,6061.6818382,Harry,0.06,6059.9079952,20,0.5851184999992256,1,001,AB,6059.3172012,2.819572400767356,4,6065.6824458,6058.0732793,6061.6286186
6068.5770429,0.7362871999999697,4,early,44.17723199999818,systole,1.0,6067.1957108,B,20250114-130445,,loss,6068.574222432,False,6068.5770429,Harry,0.06,6067.2038679,20,0.4639612999999372,1,001,AB,6066.7317495,2.8204680002090754,5,6072.5770639,6065.6834845,6068.5300452
6076.0925531,0.8284098000000085,4,early,49.704588000000506,systole,1.0,6074.4493796,A,20250114-130445,,win,6076.0901570880005,False,6076.0925531,Harry,0.06,6074.4551726,20,0.6321744999995644,1,001,BA,6073.8172051,2.3960119997354923,6,6080.0932925,6072.5780397,6076.0404525
6082.9954137,0.8654776199999106,4,early,51.92865719999463,systole,0.0,6081.9127675,A,20250114-130445,,win,6082.9927530571995,False,6082.9954137,Harry,0.06,6081.9205406,20,0.47778010000001814,1,001,AB,6081.4349874,2.660642800947244,7,6086.9957149,6080.0944686,6082.9408244
6090.6461421,0.8429207000001042,4,early,50.57524200000625,systole,0.0,6088.8467401,A,20250114-130445,,win,6090.643727642,False,6090.6461421,Harry,0.06,6088.8538965,20,0.5246584999995321,1,001,AB,6088.3220816,2.4144580002030125,8,6094.6466182,6086.9966985,6090.5931524
6097.9627057,0.9205048600000737,4,early,55.23029160000442,systole,0.0,6096.2905666,A,20250114-130445,,loss,6097.9604428916,False,6097.9627057,Harry,0.06,6096.2962006,20,0.5703177999994296,1,001,AB,6095.7202488,2.2628083997915382,9,6101.9631924,6094.6476032,6097.9052126
6104.7632738,0.8441566199999215,4,early,50.64939719999529,systole,1.0,6103.6340102,A,20250114-130445,,win,6104.7605281972,False,6104.7632738,Harry,0.06,6103.6410901,20,0.5093421000001399,1,001,BA,6103.1246681,2.745602800132474,10,6108.7632473,6101.9641695,6104.7098788
6111.7264085,0.8720775599998888,4,early,52.324653599993326,systole,1.0,6110.3081548,A,20250114-130445,,win,6111.723196253601,False,6111.7264085,Harry,0.06,6110.313156,20,0.5252564000002167,1,001,BA,6109.7828984,3.212246399016294,11,6115.7259756,6108.7641283,6111.6708716
6118.5455582,0.8595525400000043,4,early,51.573152400000254,systole,1.0,6117.3621913,A,20250114-130445,,win,6118.5432903524,False,6118.5455582,Harry,0.06,6117.3694221,20,0.5798461999993378,1,001,BA,6116.7823451,2.2678476007058634,12,6122.5456773,6115.7280146,6118.4917172
6126.3124506,0.867841099999896,4,early,52.07046599999376,systole,1.0,6124.5356688,A,20250114-130445,,win,6126.310014366,False,6126.3124506,Harry,0.06,6124.543488,20,0.5253557000005458,1,001,BA,6124.0103131,2.436234000015247,13,6130.3123118,6122.5466298,6126.2579439
6133.1969456,0.8617084599998635,4,early,51.702507599991804,systole,0.0,6131.8990239,A,20250114-130445,,win,6133.1946268076,False,6133.1969456,Harry,0.06,6131.9069416,20,0.43607300000076066,1,001,AB,6131.4629509,2.3187923998193583,14,6137.1977949,6130.3132018,6133.1429243
6140.0604982,0.8456990999999107,4,early,50.74194599999464,systole,0.0,6138.9828297,A,20250114-130445,,win,6140.058122246,False,6140.0604982,Harry,0.06,6138.9902503,20,0.483814700000039,1,001,AB,6138.499015,2.375954000854108,15,6144.0604281,6137.1984888,6140.0073803
6147.8971631,0.8540238599998702,4,early,51.241431599992204,systole,0.0,6146.1567881,A,20250114-130445,,loss,6147.8948595316,False,6147.8971631,Harry,0.06,6146.164159,20,0.5920186000003014,1,001,AB,6145.5647695,2.3035684007481905,16,6151.8970306,6144.061571,6147.8436181
6155.0035731,0.8932583399999203,4,early,53.59550039999522,systole,0.0,6153.7502678,A,20250114-130445,,win,6155.0011603003995,False,6155.0035731,Harry,0.06,6153.7544211,20,0.5161575000001903,1,001,AB,6153.2341103,2.4127996002789587,17,6159.0045654,6151.8979169,6154.9475648
6162.3858826,0.8142695200000162,4,early,48.85617120000097,systole,1.0,6160.5545467,A,20250114-130445,,loss,6162.3834494712,False,6162.3858826,Harry,0.06,6160.55998,20,0.5422580000004018,1,001,BA,6160.0122887,2.433128799566475,18,6166.3859732,6159.0058943,6162.3345933
6169.5211512,0.8840109599999778,4,early,53.04065759999867,systole,0.0,6168.0283811,A,20250114-130445,,win,6169.5188022576,False,6169.5211512,Harry,0.06,6168.0358599,20,0.4717819999996209,1,001,AB,6167.5565991,2.348942399294174,19,6173.5211053,6166.3868693,6169.4657616
6176.4474824,0.8749685200000386,4,early,52.49811120000231,systole,0.0,6175.1423722,A,20250114-130445,,loss,6176.4452649112,True,6176.4474824,Harry,0.06,6175.1503838,20,0.5576571000001422,1,001,AB,6174.5847151,2.2174887999426574,20,6180.4481614,6173.5223159,6176.3927668
6184.2733302,0.8804715399999623,4,early,52.828292399997736,systole,1.0,6182.4159843,A,20250114-130445,,loss,6184.270227592399,True,6184.2733302,Harry,0.06,6182.4244723,20,0.5447404999995342,1,001,BA,6181.8712438,3.1026076003399794,21,6188.2737887,6180.4493034,6184.2173993
6191.296778,0.8822090599998773,4,early,52.932543599992634,systole,0.0,6190.1893347,A,20250114-130445,,loss,6191.2943797436,True,6191.296778,Harry,0.06,6190.1951714,20,0.602256999999554,1,001,AB,6189.5870777,2.398256399828824,22,6195.2967516,6188.2747928,6191.2414472
6198.1000585,0.8497999999999593,4,early,50.987999999997555,systole,0.0,6196.9036423,A,20250114-130445,,loss,6198.0974901,True,6198.1000585,Harry,0.06,6196.910762,20,0.6022304999996777,1,001,AB,6196.3014118,2.5684000002001994,23,6202.1004857,6195.2978212,6198.0465021
6205.2505208,0.9026710000000093,4,early,54.160260000000555,systole,1.0,6203.8075116,A,20250114-130445,,loss,6205.248261559999,True,6205.2505208,Harry,0.06,6203.815928,20,0.4994752000002336,1,001,BA,6203.3080364,2.259240000967111,24,6209.2508531,6202.101664,6205.1941013
6212.3286288,0.8895997800000259,4,early,53.37598680000155,systole,0.0,6210.8513911,A,20250114-130445,,loss,6212.3262304868,True,6212.3286288,Harry,0.06,6210.8594435,20,0.5221171000002869,1,001,AB,6210.329274,2.3983131995919393,25,6216.328125,6209.2515319,6212.2728545
6219.4731428,0.8803742800000691,4,early,52.82245680000414,systole,0.0,6218.2447758,B,20250114-130445,,win,6219.469729556799,True,6219.4731428,Harry,0.06,6218.2526762,20,0.5046872000002622,1,001,BA,6217.7400886,3.4132432001570123,26,6223.4737946,6216.3291873,6219.4169071
6226.5366787,0.8744419000000562,4,early,52.46651400000337,systole,0.0,6225.1190261,B,20250114-130445,,win,6226.534098214001,True,6226.5366787,Harry,0.06,6225.1268095,20,0.5104848999999376,1,001,BA,6224.6085412,2.5804859997151652,27,6230.5371458,6223.4748643,6226.4816317
6234.4661793,0.880715919999966,4,early,52.84295519999796,systole,0.0,6232.6529727,B,20250114-130445,,win,6234.463838955199,True,6234.4661793,Harry,0.06,6232.6601699,20,0.8975362999999561,1,001,BA,6231.7554364,2.340344800359162,28,6238.4666089,6230.538161,6234.410996
6241.5841753,0.8808762800001204,4,early,52.85257680000723,systole,1.0,6240.296805,B,20250114-130445,,win,6241.5818983768,True,6241.5841753,Harry,0.06,6240.3056591,20,0.5789269999995668,1,001,AB,6239.717878,2.276923200042802,29,6245.5849677,6238.4674848,6241.5290458
6248.7183556,0.9016463400001158,4,early,54.098780400006945,systole,1.0,6247.6406791,B,20250114-130445,,loss,6248.7159479803995,True,6248.7183556,Harry,0.06,6247.6486988,20,0.651151199999731,1,001,AB,6246.9895279,2.407619600489852,30,6252.718175,6245.5858708,6248.6618492
6255.7400643,0.8775593599999411,4,early,52.653561599996465,systole,0.0,6254.3145854,B,20250114-130445,,loss,6255.7376710616,True,6255.7400643,Harry,0.06,6254.3226048,20,0.44100500000058673,1,001,BA,6253.8735804,2.393238400145492,31,6259.7407184,6252.71923,6255.6850175
6262.7432035,0.8751471800000218,4,early,52.508830800001306,systole,1.0,6261.3599128,B,20250114-130445,,win,6262.7407829308,True,6262.7432035,Harry,0.06,6261.3677087,20,0.4462398999994548,1,001,AB,6260.9136729,2.42056919978495,32,6266.7440076,6259.7416952,6262.6882741
6270.6268316,0.8898478799999794,4,early,53.39087279999876,systole,0.0,6268.7122668,B,20250114-130445,,win,6270.6245153728005,True,6270.6268316,Harry,0.06,6268.7174557,20,0.502130699999725,1,001,BA,6268.2101361,2.316227199116838,33,6274.6265316,6266.7450001,6270.5711245
6277.7877278,0.9085659200000009,4,early,54.513955200000055,systole,0.0,6276.7150987,B,20250114-130445,,win,6277.784526055199,True,6277.7877278,Harry,0.06,6276.7212251,20,0.6118471000008867,1,001,BA,6276.1032516,3.201744800207962,34,6281.7886847,6274.6275088,6277.7300121
6284.8706207,0.8968832399999883,4,early,53.81299439999929,systole,0.0,6283.5094971,B,20250114-130445,,win,6284.8672374944,True,6284.8706207,Harry,0.06,6283.5163074,20,0.48871390000022075,1,001,BA,6283.0207832,3.3832055996754207,35,6288.8705752,6281.789585,6284.8134245
6292.3152062,0.825967479999963,4,early,49.55804879999778,systole,1.0,6291.0828783,B,20250114-130445,,loss,6292.3128526488,True,6292.3152062,Harry,0.06,6291.0889324,20,0.7454319999997097,1,001,AB,6290.3374463,2.353551200030779,36,6296.3158956,6288.8715631,6292.2632946
6299.7962951,0.8141738799999075,4,early,48.85043279999445,systole,1.0,6297.9670387,B,20250114-130445,,win,6299.794010932799,True,6299.7962951,Harry,0.06,6297.9745624,20,0.5847176999996009,1,001,AB,6297.382321,2.284167200741649,37,6303.7963078,6296.3169583,6299.7451605
6307.3122917,0.88451782000011,4,early,53.0710692000066,systole,0.0,6305.7006033,B,20250114-130445,,loss,6307.3096802692,True,6307.3122917,Harry,0.06,6305.7081165,20,0.5750465000000986,1,001,BA,6305.1255568,2.6114308002433972,38,6311.3124587,6303.7979836,6307.2566092
6314.5450822,0.9018129199999748,4,early,54.10877519999849,systole,1.0,6312.8944155,B,20250114-130445,,win,6314.5421841751995,True,6314.5450822,Harry,0.06,6312.8988441,20,0.4895976999996492,1,001,AB,6312.4048178,2.89802480074286,39,6318.5454363,6311.3134527,6314.4880754
6335.8415343,0.7835390399999597,5,mid,548.4773279999717,diastole,0.0,6333.5243062,B,20250114-130445,,loss,6335.837452727999,False,6335.8415343,Harry,0.7,6333.5322947,18,0.7836188999999649,1,001,BA,6332.7406873,4.0815720003593015,0,6339.8413848,6331.3666283,6335.2889754
6343.5672543,0.9489110800001072,5,mid,664.2377560000749,diastole,1.0,6341.4870262,B,20250114-130445,,loss,6343.564224656,False,6343.5672543,Harry,0.7,6341.4943178,18,0.356283699999949,1,001,AB,6341.1307425,3.0296439999801805,1,6347.5678057,6339.8424693,6342.8999869
6351.3047214,0.8742535400000634,5,mid,611.9774780000444,diastole,1.0,6349.5100717,A,20250114-130445,,loss,6351.301870578,False,6351.3047214,Harry,0.7,6349.5185115,18,0.612000099999932,1,001,BA,6348.8980716,2.8508220002549933,2,6355.3050052,6347.5689702,6350.6898931
6359.2780055,0.8809793200000058,5,mid,616.685524000004,diastole,0.0,6356.9941887,B,20250114-130445,,loss,6359.274872324,False,6359.2780055,Harry,0.7,6357.0021005,18,0.51391810000041,1,001,BA,6356.4802706,3.1331760001194198,3,6363.2777805,6355.3057862,6358.6581868
6366.8453568,0.8256919399998879,5,mid,577.9843579999214,diastole,0.0,6364.9469756,B,20250114-130445,,loss,6366.842265258,False,6366.8453568,Harry,0.7,6364.9543442,18,0.478536499999791,1,001,BA,6364.4684391,3.0915420002202154,4,6370.8455326,6363.2789478,6366.2642809
6375.0212139,0.8282937399999355,5,mid,579.8056179999547,diastole,1.0,6372.8500919,A,20250114-130445,,win,6375.018110518,False,6375.0212139,Harry,0.7,6372.8576042,18,0.6237111999998888,1,001,BA,6372.2263807,3.1033819996082457,5,6379.0208234,6370.8463738,6374.4383049
6383.0478589,0.7914683799999693,5,mid,554.0278659999784,diastole,0.0,6380.87329,A,20250114-130445,,win,6383.044269366,False,6383.0478589,Harry,0.7,6380.8808667,18,0.7906673000006776,1,001,AB,6380.0826227,3.589534000639105,6,6387.0471963,6379.0220719,6382.4902415
6390.8480251,0.8662845000000743,5,mid,606.3991500000519,diastole,1.0,6388.9483354,A,20250114-130445,,win,6390.84402895,False,6390.8480251,Harry,0.7,6388.9555378,18,0.600868000000446,1,001,BA,6388.3474674,3.9961499996934435,7,6394.8487599,6387.0478877,6390.2376298
6398.6775107,0.8780970800000432,5,mid,614.6679560000302,diastole,1.0,6396.9793803,A,20250114-130445,,loss,6398.675123956,False,6398.6775107,Harry,0.7,6396.9868047,18,0.6649425000005067,1,001,BA,6396.3144378,2.3867440004323726,8,6402.6769639,6394.8501156,6398.060456
6406.4998114,0.8591544000000795,5,mid,601.4080800000556,diastole,0.0,6404.2731054,A,20250114-130445,,loss,6406.49691878,False,6406.4998114,Harry,0.7,6404.2791264,18,0.4143795999998474,1,001,AB,6403.8587258,2.8926200002388214,9,6410.5001602,6402.677754,6405.8955107
6414.5682539,0.8958938199999466,5,mid,627.1256739999626,diastole,0.0,6412.2266107,A,20250114-130445,,win,6414.565751274,False,6414.5682539,Harry,0.7,6412.2338963,18,0.7037551999992502,1,001,AB,6411.5228555,2.502626000023156,10,6418.5678776,6410.5007886,6413.9386256
6422.6874497,0.9025097800000367,5,mid,631.7568460000257,diastole,1.0,6420.5491445,A,20250114-130445,,win,6422.684039646,False,6422.6874497,Harry,0.7,6420.5573067,18,0.4994901000000027,1,001,BA,6420.0496544,3.4100539996870793,11,6426.6871254,6418.5687071,6422.0522828
6430.6560498,0.8890951999999743,5,mid,622.366639999982,diastole,1.0,6428.4621504,A,20250114-130445,,win,6430.652978040001,False,6430.6560498,Harry,0.7,6428.4694706,18,0.6287137999997867,1,001,BA,6427.8334366,3.0717599993295153,12,6434.6567083,6426.6878205,6430.0306114
6438.3505401,0.8534719200000837,5,mid,597.4303440000585,diastole,1.0,6436.6153919,A,20250114-130445,,loss,6438.347571344,False,6438.3505401,Harry,0.7,6436.623855,18,0.5274369999997361,1,001,BA,6436.0879549,2.9687559999729274,13,6442.350101,6434.6577883,6437.750141
6446.2044605,0.8610739199999443,5,mid,602.751743999961,diastole,0.0,6444.2985564,A,20250114-130445,,win,6446.201341544,False,6446.2044605,Harry,0.7,6444.3054122,18,0.5720850999996401,1,001,AB,6443.7264713,3.1189560004349914,14,6450.2053732,6442.351377,6445.5985898
6454.2478716,0.8926731200001086,5,mid,624.8711840000759,diastole,1.0,6451.9017167,A,20250114-130445,,win,6454.243636484,False,6454.2478716,Harry,0.7,6451.9092179,18,0.6061366000003545,1,001,BA,6451.2955801,4.235116000018024,15,6458.2490484,6450.2064071,6453.6187653
6462.2454458,0.9053007399999842,5,mid,633.710517999989,diastole,1.0,6460.1347081,A,20250114-130445,,win,6462.242053318,False,6462.2454458,Harry,0.7,6460.1418807,18,0.5902881000001798,1,001,BA,6459.54442,3.3924819999811007,16,6466.2448242,6458.2499107,6461.6083428
6470.1310004,0.8653559200000018,5,mid,605.7491440000013,diastole,1.0,6467.8081842,A,20250114-130445,,win,6470.128212144,False,6470.1310004,Harry,0.7,6467.8158303,18,0.500923600000533,1,001,BA,6467.3072606,2.7882559998033685,17,6474.1311437,6466.246659,6469.522463
6478.016219,0.8637446000000637,5,mid,604.6212200000446,diastole,0.0,6475.9812052,A,20250114-130445,,win,6478.01321732,True,6478.016219,Harry,0.7,6475.9893855,18,0.5397204000000784,1,001,AB,6475.4414848,3.0016800001249067,18,6482.0155254,6474.1324831,6477.4085961
6485.6696335,0.8626271000000998,5,mid,603.8389700000698,diastole,0.0,6483.8138437,A,20250114-130445,,win,6485.66685977,True,6485.6696335,Harry,0.7,6483.8221938,18,0.5660572999995566,1,001,AB,6483.2477864,2.773729999717034,19,6489.6692711,6482.0165288,6485.0630208
6493.6640407,0.8234338799999023,5,mid,576.4037159999316,diastole,0.0,6491.5568319,A,20250114-130445,,loss,6493.661110315999,True,6493.6640407,Harry,0.7,6491.5644316,18,0.4766226000001552,1,001,AB,6491.0802093,2.9303840010470594,20,6497.6643687,6489.6703534,6493.0847066
6501.673727,0.9206075799998871,5,mid,644.4253059999209,diastole,1.0,6499.6198884,A,20250114-130445,,loss,6501.671447906,True,6501.673727,Harry,0.7,6499.6274249,18,0.5729665999997451,1,001,BA,6499.0469218,2.2790940001868876,21,6505.6741408,6497.6653609,6501.0270226
6510.1434818,0.855810240000028,5,mid,599.0671680000196,diastole,0.0,6507.8927167,A,20250114-130445,,loss,6510.140301068001,True,6510.1434818,Harry,0.7,6507.8989644,18,0.7493874000001597,1,001,AB,6507.1433293,3.180731999236741,22,6514.1434735,6505.6751159,6509.5412339
6517.8459025,0.8541754600000786,5,mid,597.922822000055,diastole,1.0,6515.9057816,A,20250114-130445,,loss,6517.841797322,True,6517.8459025,Harry,0.7,6515.9132352,18,0.4749825000008059,1,001,BA,6515.4307991,4.105177999917942,23,6521.8455506,6514.1444719,6517.2438745
6525.4340815,0.8554499399999258,5,mid,598.814957999948,diastole,1.0,6523.5995475,A,20250114-130445,,loss,6525.430853158,True,6525.4340815,Harry,0.7,6523.6066968,18,0.6288930999999138,1,001,BA,6522.9706544,3.22834199960198,24,6529.4347334,6521.8465478,6524.8320382
6533.0794989,0.8436676400000579,5,mid,590.5673480000405,diastole,0.0,6531.3528353,A,20250114-130445,,loss,6533.075714148,True,6533.0794989,Harry,0.7,6531.3586561,18,0.47893930000009277,1,001,AB,6530.873896,3.7847519997740164,25,6537.0798242,6529.4357178,6532.4851468
6541.5754121,0.841119400000025,5,mid,588.7835800000175,diastole,1.0,6539.2862474,A,20250114-130445,,win,6541.57209598,True,6541.5754121,Harry,0.7,6539.2924239,18,0.7368623000002117,1,001,BA,6538.5493851,3.316119999908551,26,6545.5754101,6537.0807166,6540.9833124
6549.5534353,0.8763592399998743,5,mid,613.451467999912,diastole,1.0,6547.5086823,A,20250114-130445,,loss,6549.549700568,True,6549.5534353,Harry,0.7,6547.5166911,18,0.4629874000002019,1,001,BA,6547.0456949,3.734732000339136,27,6553.5538355,6545.5764728,6548.9362491
6557.4562197,0.8662874200001169,5,mid,606.4011940000819,diastole,0.0,6555.451921,A,20250114-130445,,win,6557.452402094,True,6557.4562197,Harry,0.7,6555.4604533,18,0.49500019999959477,1,001,AB,6554.9569208,3.817605999756779,28,6561.4560335,6553.5546614,6556.8460009
6565.5073029,0.902506159999939,5,mid,631.7543119999573,diastole,0.0,6563.5649226,A,20250114-130445,,loss,6565.504333612001,True,6565.5073029,Harry,0.7,6563.5715779,18,0.6789501999992353,1,001,AB,6562.8859724,2.9692879988942877,29,6569.5066867,6561.4569895,6564.8725793
6573.3540265,0.8772378800000297,5,mid,614.0665160000207,diastole,1.0,6571.3185714,A,20250114-130445,,loss,6573.350302216,True,6573.3540265,Harry,0.7,6571.3272789,18,0.5046429000003627,1,001,BA,6570.8139285,3.7242839998725685,30,6577.3541606,6569.5079238,6572.7362357
6581.1851469,0.8704543600000761,5,mid,609.3180520000533,diastole,0.0,6579.1518361,A,20250114-130445,,win,6581.182000652,True,6581.1851469,Harry,0.7,6579.1596021,18,0.714160699999411,1,001,AB,6578.4376754,3.146248000120977,31,6585.1849979,6577.3550457,6580.5726826
6588.9101388,0.8443155599999954,5,mid,591.0208919999967,diastole,1.0,6586.8357692,A,20250114-130445,,win,6588.904940292,True,6588.9101388,Harry,0.7,6586.8436481,18,0.5569214999995893,1,001,BA,6586.2788477,5.198507999921276,32,6592.910809,6585.1870451,6588.3139194
6596.7487952,0.8393952399999762,5,mid,587.5766679999833,diastole,1.0,6594.9189804,A,20250114-130445,,win,6596.746166868,True,6596.7487952,Harry,0.7,6594.9267926,18,0.782643200000166,1,001,BA,6594.1363372,2.628332000313094,33,6600.7488954,6592.9117299,6596.1585902
6604.9682046,0.9173784399999931,5,mid,642.1649079999952,diastole,0.0,6602.6525315,A,20250114-130445,,loss,6604.965607208001,True,6604.9682046,Harry,0.7,6602.6601357,18,0.5427461999997831,1,001,AB,6602.1097853,2.597391999188403,34,6608.9679744,6600.7495514,6604.3234423
6612.7375575,0.8712943800001085,5,mid,609.906066000076,diastole,1.0,6610.4356778,A,20250114-130445,,loss,6612.733862466,True,6612.7375575,Harry,0.7,6610.4393227,18,0.45988779999970575,1,001,BA,6609.97579,3.6950339999748394,35,6616.738325,6608.9689623,6612.1239564
6620.255996,0.8371748800000205,5,mid,586.0224160000142,diastole,1.0,6618.3188843,A,20250114-130445,,loss,6620.252115216,True,6620.255996,Harry,0.7,6618.3267394,18,0.45021079999969515,1,001,BA,6617.8686735,3.8807840001027216,36,6624.2563617,6616.7394524,6619.6660928
6627.4420726,0.9063254599999709,5,mid,634.4278219999796,diastole,1.0,6625.7624992,A,20250114-130445,,loss,6627.437791722,True,6627.4420726,Harry,0.7,6625.7695649,18,0.4406294999998863,1,001,BA,6625.3218697,4.2808779999177204,37,6631.4426507,6624.2572887,6626.8033639
6635.2221494,0.8686040800001138,5,mid,608.0228560000796,diastole,0.0,6633.2060096,A,20250114-130445,,loss,6635.219486256,True,6635.2221494,Harry,0.7,6633.2102265,18,0.4591476999994484,1,001,AB,6632.7468619,2.6631439995981054,38,6639.2216751,6631.4437286,6634.6114634
6643.3149914,0.8933183800001643,5,mid,625.322866000115,diastole,1.0,6641.0192556,A,20250114-130445,,loss,6643.310598966,True,6643.3149914,Harry,0.7,6641.0263891,18,0.5052384000000529,1,001,BA,6640.5140172,4.392433999782952,39,6647.314919,6639.2226007,6642.6852761
